STUDYID,DOMAIN,USUBJID,AESEQ,AEGRPID,AETERM,AELLT,AELLTCD,AEDECOD,AEPTCD,AEHLT,AEHLTCD,AEHLGT,AEHLGTCD,AEBODSYS,AEBDSYCD,AESOC,AESOCCD,AESTDTC,AEENDTC,AESTDY,AEENDY,AEDUR,AEENRF,AESEV,AESER,AEACN,AEREL,AEOUT,AESCAN,AESCONG,AESDTH,AESHOSP,AESDISAB,AESLIFE,AESMIE,AETOXGR,VISIT,VISITNUM,EPOCH
STUDY001,AE,STUDY001-001-001,1,,Headache,,,Headache,,,,,,,,,,2024-02-10,2024-02-08,27,25,P-2D,,MILD,N,,POSSIBLY RELATED,RECOVERED/RESOLVED,,,N,N,N,N,N,,WEEK 4,5,TREATMENT
STUDY001,AE,STUDY001-001-002,1,,Nausea,,,Nausea and vomiting,,,,,,,,,,2024-02-15,2024-02-20,29,34,P5D,,MODERATE,Y,,PROBABLY RELATED,FATAL,,,N,N,N,N,N,,WEEK 2,4,TREATMENT
