<?xml version="1.0" encoding="UTF-8"?>
<ODM xmlns="http://www.cdisc.org/ns/odm/v1.3"
     xmlns:def="http://www.cdisc.org/ns/def/v2.0"
     xmlns:xlink="http://www.w3.org/1999/xlink"
     FileType="Snapshot" FileOID="STUDY001.define"
     CreationDateTime="2026-05-07T20:16:36" AsOfDateTime="2026-05-07T20:16:36"
     ODMVersion="1.3.2">
  <Study OID="STUDY001">
    <GlobalVariables>
      <StudyName>STUDY001</StudyName>
      <StudyDescription>Clinical Study STUDY001</StudyDescription>
      <ProtocolName>STUDY001</ProtocolName>
    </GlobalVariables>
    <MetaDataVersion OID="STUDY001.MDV" Name="SDTM Metadata"
      def:DefineVersion="2.0.0" def:StandardName="SDTM" def:StandardVersion="1.8">
      <def:leaf ID="LF.DM" xlink:type="simple" xlink:href="dm.csv">
        <def:title>DM — Demographics</def:title>
      </def:leaf>
      <def:leaf ID="LF.AE" xlink:type="simple" xlink:href="ae.csv">
        <def:title>AE — Adverse Events</def:title>
      </def:leaf>
      <def:leaf ID="LF.VS" xlink:type="simple" xlink:href="vs.csv">
        <def:title>VS — Vital Signs</def:title>
      </def:leaf>
      <def:leaf ID="LF.LB" xlink:type="simple" xlink:href="lb.csv">
        <def:title>LB — Laboratory Test Results</def:title>
      </def:leaf>
      <def:leaf ID="LF.EX" xlink:type="simple" xlink:href="ex.csv">
        <def:title>EX — Exposure</def:title>
      </def:leaf>
      <ItemGroupDef OID="IG.DM" Name="DM"
        Repeating="No" IsReferenceData="No"
        SASDatasetName="DM"
        def:Structure="Special Purpose" def:Class="Special Purpose"
        def:Purpose="Tabulation" def:ArchiveLocationID="LF.DM">
        <Description>Demographics</Description>
        <ItemRef ItemOID="IT.DM.STUDYID" Mandatory="Yes" OrderNumber="1"/>
        <ItemRef ItemOID="IT.DM.DOMAIN" Mandatory="Yes" OrderNumber="2"/>
        <ItemRef ItemOID="IT.DM.USUBJID" Mandatory="Yes" OrderNumber="3"/>
        <ItemRef ItemOID="IT.DM.SUBJID" Mandatory="Yes" OrderNumber="4"/>
        <ItemRef ItemOID="IT.DM.RFSTDTC" Mandatory="Yes" OrderNumber="5"/>
        <ItemRef ItemOID="IT.DM.RFENDTC" Mandatory="No" OrderNumber="6"/>
        <ItemRef ItemOID="IT.DM.RFXSTDTC" Mandatory="No" OrderNumber="7"/>
        <ItemRef ItemOID="IT.DM.RFICDTC" Mandatory="No" OrderNumber="8"/>
        <ItemRef ItemOID="IT.DM.SITEID" Mandatory="Yes" OrderNumber="9"/>
        <ItemRef ItemOID="IT.DM.BRTHDTC" Mandatory="No" OrderNumber="10"/>
        <ItemRef ItemOID="IT.DM.AGE" Mandatory="No" OrderNumber="11"/>
        <ItemRef ItemOID="IT.DM.AGEU" Mandatory="No" OrderNumber="12"/>
        <ItemRef ItemOID="IT.DM.SEX" Mandatory="Yes" OrderNumber="13"/>
        <ItemRef ItemOID="IT.DM.RACE" Mandatory="No" OrderNumber="14"/>
        <ItemRef ItemOID="IT.DM.ETHNIC" Mandatory="No" OrderNumber="15"/>
        <ItemRef ItemOID="IT.DM.COUNTRY" Mandatory="Yes" OrderNumber="16"/>
        <ItemRef ItemOID="IT.DM.ARM" Mandatory="No" OrderNumber="17"/>
        <ItemRef ItemOID="IT.DM.ARMCD" Mandatory="No" OrderNumber="18"/>
        <ItemRef ItemOID="IT.DM.ACTARM" Mandatory="No" OrderNumber="19"/>
        <ItemRef ItemOID="IT.DM.DTHDTC" Mandatory="No" OrderNumber="20"/>
        <ItemRef ItemOID="IT.DM.DTHFL" Mandatory="No" OrderNumber="21"/>
      </ItemGroupDef>
      <ItemGroupDef OID="IG.AE" Name="AE"
        Repeating="Yes" IsReferenceData="No"
        SASDatasetName="AE"
        def:Structure="Events" def:Class="Events"
        def:Purpose="Tabulation" def:ArchiveLocationID="LF.AE">
        <Description>Adverse Events</Description>
        <ItemRef ItemOID="IT.AE.STUDYID" Mandatory="Yes" OrderNumber="1"/>
        <ItemRef ItemOID="IT.AE.DOMAIN" Mandatory="Yes" OrderNumber="2"/>
        <ItemRef ItemOID="IT.AE.USUBJID" Mandatory="Yes" OrderNumber="3"/>
        <ItemRef ItemOID="IT.AE.AESEQ" Mandatory="Yes" OrderNumber="4"/>
        <ItemRef ItemOID="IT.AE.AEGRPID" Mandatory="No" OrderNumber="5"/>
        <ItemRef ItemOID="IT.AE.AETERM" Mandatory="Yes" OrderNumber="6"/>
        <ItemRef ItemOID="IT.AE.AELLT" Mandatory="No" OrderNumber="7"/>
        <ItemRef ItemOID="IT.AE.AELLTCD" Mandatory="No" OrderNumber="8"/>
        <ItemRef ItemOID="IT.AE.AEDECOD" Mandatory="No" OrderNumber="9"/>
        <ItemRef ItemOID="IT.AE.AEPTCD" Mandatory="No" OrderNumber="10"/>
        <ItemRef ItemOID="IT.AE.AEHLT" Mandatory="No" OrderNumber="11"/>
        <ItemRef ItemOID="IT.AE.AEHLTCD" Mandatory="No" OrderNumber="12"/>
        <ItemRef ItemOID="IT.AE.AEHLGT" Mandatory="No" OrderNumber="13"/>
        <ItemRef ItemOID="IT.AE.AEHLGTCD" Mandatory="No" OrderNumber="14"/>
        <ItemRef ItemOID="IT.AE.AEBODSYS" Mandatory="No" OrderNumber="15"/>
        <ItemRef ItemOID="IT.AE.AEBDSYCD" Mandatory="No" OrderNumber="16"/>
        <ItemRef ItemOID="IT.AE.AESOC" Mandatory="No" OrderNumber="17"/>
        <ItemRef ItemOID="IT.AE.AESOCCD" Mandatory="No" OrderNumber="18"/>
        <ItemRef ItemOID="IT.AE.AESTDTC" Mandatory="Yes" OrderNumber="19"/>
        <ItemRef ItemOID="IT.AE.AEENDTC" Mandatory="No" OrderNumber="20"/>
        <ItemRef ItemOID="IT.AE.AESTDY" Mandatory="No" OrderNumber="21"/>
        <ItemRef ItemOID="IT.AE.AEENDY" Mandatory="No" OrderNumber="22"/>
        <ItemRef ItemOID="IT.AE.AEDUR" Mandatory="No" OrderNumber="23"/>
        <ItemRef ItemOID="IT.AE.AEENRF" Mandatory="No" OrderNumber="24"/>
        <ItemRef ItemOID="IT.AE.AESEV" Mandatory="Yes" OrderNumber="25"/>
        <ItemRef ItemOID="IT.AE.AESER" Mandatory="Yes" OrderNumber="26"/>
        <ItemRef ItemOID="IT.AE.AEACN" Mandatory="No" OrderNumber="27"/>
        <ItemRef ItemOID="IT.AE.AEREL" Mandatory="No" OrderNumber="28"/>
        <ItemRef ItemOID="IT.AE.AEOUT" Mandatory="No" OrderNumber="29"/>
        <ItemRef ItemOID="IT.AE.AESCAN" Mandatory="No" OrderNumber="30"/>
        <ItemRef ItemOID="IT.AE.AESCONG" Mandatory="No" OrderNumber="31"/>
        <ItemRef ItemOID="IT.AE.AESDTH" Mandatory="No" OrderNumber="32"/>
        <ItemRef ItemOID="IT.AE.AESHOSP" Mandatory="No" OrderNumber="33"/>
        <ItemRef ItemOID="IT.AE.AESDISAB" Mandatory="No" OrderNumber="34"/>
        <ItemRef ItemOID="IT.AE.AESLIFE" Mandatory="No" OrderNumber="35"/>
        <ItemRef ItemOID="IT.AE.AESMIE" Mandatory="No" OrderNumber="36"/>
        <ItemRef ItemOID="IT.AE.AETOXGR" Mandatory="No" OrderNumber="37"/>
        <ItemRef ItemOID="IT.AE.VISIT" Mandatory="No" OrderNumber="38"/>
        <ItemRef ItemOID="IT.AE.VISITNUM" Mandatory="No" OrderNumber="39"/>
        <ItemRef ItemOID="IT.AE.EPOCH" Mandatory="No" OrderNumber="40"/>
      </ItemGroupDef>
      <ItemGroupDef OID="IG.VS" Name="VS"
        Repeating="Yes" IsReferenceData="No"
        SASDatasetName="VS"
        def:Structure="Findings" def:Class="Findings"
        def:Purpose="Tabulation" def:ArchiveLocationID="LF.VS">
        <Description>Vital Signs</Description>
        <ItemRef ItemOID="IT.VS.STUDYID" Mandatory="Yes" OrderNumber="1"/>
        <ItemRef ItemOID="IT.VS.DOMAIN" Mandatory="Yes" OrderNumber="2"/>
        <ItemRef ItemOID="IT.VS.USUBJID" Mandatory="Yes" OrderNumber="3"/>
        <ItemRef ItemOID="IT.VS.VSSEQ" Mandatory="Yes" OrderNumber="4"/>
        <ItemRef ItemOID="IT.VS.VSTESTCD" Mandatory="Yes" OrderNumber="5"/>
        <ItemRef ItemOID="IT.VS.VSTEST" Mandatory="Yes" OrderNumber="6"/>
        <ItemRef ItemOID="IT.VS.VSPOS" Mandatory="No" OrderNumber="7"/>
        <ItemRef ItemOID="IT.VS.VSORRES" Mandatory="Yes" OrderNumber="8"/>
        <ItemRef ItemOID="IT.VS.VSORRESU" Mandatory="Yes" OrderNumber="9"/>
        <ItemRef ItemOID="IT.VS.VSSTRESC" Mandatory="No" OrderNumber="10"/>
        <ItemRef ItemOID="IT.VS.VSSTRESN" Mandatory="No" OrderNumber="11"/>
        <ItemRef ItemOID="IT.VS.VSSTRESU" Mandatory="No" OrderNumber="12"/>
        <ItemRef ItemOID="IT.VS.VSNRIND" Mandatory="No" OrderNumber="13"/>
        <ItemRef ItemOID="IT.VS.VSBLFL" Mandatory="No" OrderNumber="14"/>
        <ItemRef ItemOID="IT.VS.VSDRVFL" Mandatory="No" OrderNumber="15"/>
        <ItemRef ItemOID="IT.VS.VISITNUM" Mandatory="No" OrderNumber="16"/>
        <ItemRef ItemOID="IT.VS.VISIT" Mandatory="No" OrderNumber="17"/>
        <ItemRef ItemOID="IT.VS.VSDTC" Mandatory="Yes" OrderNumber="18"/>
        <ItemRef ItemOID="IT.VS.VSDY" Mandatory="No" OrderNumber="19"/>
      </ItemGroupDef>
      <ItemGroupDef OID="IG.LB" Name="LB"
        Repeating="Yes" IsReferenceData="No"
        SASDatasetName="LB"
        def:Structure="Findings" def:Class="Findings"
        def:Purpose="Tabulation" def:ArchiveLocationID="LF.LB">
        <Description>Laboratory Test Results</Description>
        <ItemRef ItemOID="IT.LB.STUDYID" Mandatory="Yes" OrderNumber="1"/>
        <ItemRef ItemOID="IT.LB.DOMAIN" Mandatory="Yes" OrderNumber="2"/>
        <ItemRef ItemOID="IT.LB.USUBJID" Mandatory="Yes" OrderNumber="3"/>
        <ItemRef ItemOID="IT.LB.LBSEQ" Mandatory="Yes" OrderNumber="4"/>
        <ItemRef ItemOID="IT.LB.LBTESTCD" Mandatory="Yes" OrderNumber="5"/>
        <ItemRef ItemOID="IT.LB.LBTEST" Mandatory="Yes" OrderNumber="6"/>
        <ItemRef ItemOID="IT.LB.LBCAT" Mandatory="No" OrderNumber="7"/>
        <ItemRef ItemOID="IT.LB.LBORRES" Mandatory="Yes" OrderNumber="8"/>
        <ItemRef ItemOID="IT.LB.LBORRESU" Mandatory="No" OrderNumber="9"/>
        <ItemRef ItemOID="IT.LB.LBSTRESC" Mandatory="No" OrderNumber="10"/>
        <ItemRef ItemOID="IT.LB.LBSTRESN" Mandatory="No" OrderNumber="11"/>
        <ItemRef ItemOID="IT.LB.LBSTRESU" Mandatory="No" OrderNumber="12"/>
        <ItemRef ItemOID="IT.LB.LBNRLO" Mandatory="No" OrderNumber="13"/>
        <ItemRef ItemOID="IT.LB.LBNRHI" Mandatory="No" OrderNumber="14"/>
        <ItemRef ItemOID="IT.LB.LBNRIND" Mandatory="No" OrderNumber="15"/>
        <ItemRef ItemOID="IT.LB.LBBLFL" Mandatory="No" OrderNumber="16"/>
        <ItemRef ItemOID="IT.LB.VISITNUM" Mandatory="No" OrderNumber="17"/>
        <ItemRef ItemOID="IT.LB.VISIT" Mandatory="No" OrderNumber="18"/>
        <ItemRef ItemOID="IT.LB.LBDTC" Mandatory="Yes" OrderNumber="19"/>
        <ItemRef ItemOID="IT.LB.LBDY" Mandatory="No" OrderNumber="20"/>
      </ItemGroupDef>
      <ItemGroupDef OID="IG.EX" Name="EX"
        Repeating="Yes" IsReferenceData="No"
        SASDatasetName="EX"
        def:Structure="Interventions" def:Class="Interventions"
        def:Purpose="Tabulation" def:ArchiveLocationID="LF.EX">
        <Description>Exposure</Description>
        <ItemRef ItemOID="IT.EX.STUDYID" Mandatory="Yes" OrderNumber="1"/>
        <ItemRef ItemOID="IT.EX.DOMAIN" Mandatory="Yes" OrderNumber="2"/>
        <ItemRef ItemOID="IT.EX.USUBJID" Mandatory="Yes" OrderNumber="3"/>
        <ItemRef ItemOID="IT.EX.EXSEQ" Mandatory="Yes" OrderNumber="4"/>
        <ItemRef ItemOID="IT.EX.EXTRT" Mandatory="Yes" OrderNumber="5"/>
        <ItemRef ItemOID="IT.EX.EXDOSE" Mandatory="Yes" OrderNumber="6"/>
        <ItemRef ItemOID="IT.EX.EXDOSU" Mandatory="Yes" OrderNumber="7"/>
        <ItemRef ItemOID="IT.EX.EXDOSFRM" Mandatory="No" OrderNumber="8"/>
        <ItemRef ItemOID="IT.EX.EXDOSFRQ" Mandatory="Yes" OrderNumber="9"/>
        <ItemRef ItemOID="IT.EX.EXROUTE" Mandatory="No" OrderNumber="10"/>
        <ItemRef ItemOID="IT.EX.EXSTDTC" Mandatory="Yes" OrderNumber="11"/>
        <ItemRef ItemOID="IT.EX.EXENDTC" Mandatory="Yes" OrderNumber="12"/>
        <ItemRef ItemOID="IT.EX.EXSTDY" Mandatory="No" OrderNumber="13"/>
        <ItemRef ItemOID="IT.EX.EXENDY" Mandatory="No" OrderNumber="14"/>
        <ItemRef ItemOID="IT.EX.VISIT" Mandatory="No" OrderNumber="15"/>
        <ItemRef ItemOID="IT.EX.VISITNUM" Mandatory="No" OrderNumber="16"/>
        <ItemRef ItemOID="IT.EX.EPOCH" Mandatory="No" OrderNumber="17"/>
      </ItemGroupDef>
      <ItemDef OID="IT.DM.STUDYID" Name="STUDYID"
        DataType="text" Length="200" SASFieldName="STUDYID"
        def:Label="Study Identifier">
        <Description>
          <TranslatedText xml:lang="en">Study Identifier</TranslatedText>
        </Description>
      </ItemDef>
      <ItemDef OID="IT.DM.DOMAIN" Name="DOMAIN"
        DataType="text" Length="200" SASFieldName="DOMAIN"
        def:Label="Domain Abbreviation">
        <Description>
          <TranslatedText xml:lang="en">Domain Abbreviation</TranslatedText>
        </Description>
      </ItemDef>
      <ItemDef OID="IT.DM.USUBJID" Name="USUBJID"
        DataType="text" Length="200" SASFieldName="USUBJID"
        def:Label="Unique Subject Identifier">
        <Description>
          <TranslatedText xml:lang="en">Unique Subject Identifier</TranslatedText>
        </Description>
      </ItemDef>
      <ItemDef OID="IT.DM.SUBJID" Name="SUBJID"
        DataType="text" Length="200" SASFieldName="SUBJID"
        def:Label="Subject Identifier for Study">
        <Description>
          <TranslatedText xml:lang="en">Subject Identifier for Study</TranslatedText>
        </Description>
      </ItemDef>
      <ItemDef OID="IT.DM.RFSTDTC" Name="RFSTDTC"
        DataType="text" Length="200" SASFieldName="RFSTDTC"
        def:Label="Subject Reference Start Date">
        <Description>
          <TranslatedText xml:lang="en">Subject Reference Start Date</TranslatedText>
        </Description>
      </ItemDef>
      <ItemDef OID="IT.DM.RFENDTC" Name="RFENDTC"
        DataType="text" Length="200" SASFieldName="RFENDTC"
        def:Label="Subject Reference End Date">
        <Description>
          <TranslatedText xml:lang="en">Subject Reference End Date</TranslatedText>
        </Description>
      </ItemDef>
      <ItemDef OID="IT.DM.RFXSTDTC" Name="RFXSTDTC"
        DataType="text" Length="200" SASFieldName="RFXSTDTC"
        def:Label="Date/Time of First Study Treatment">
        <Description>
          <TranslatedText xml:lang="en">Date/Time of First Study Treatment</TranslatedText>
        </Description>
      </ItemDef>
      <ItemDef OID="IT.DM.RFICDTC" Name="RFICDTC"
        DataType="text" Length="200" SASFieldName="RFICDTC"
        def:Label="Date/Time of Informed Consent">
        <Description>
          <TranslatedText xml:lang="en">Date/Time of Informed Consent</TranslatedText>
        </Description>
      </ItemDef>
      <ItemDef OID="IT.DM.SITEID" Name="SITEID"
        DataType="text" Length="200" SASFieldName="SITEID"
        def:Label="Study Site Identifier">
        <Description>
          <TranslatedText xml:lang="en">Study Site Identifier</TranslatedText>
        </Description>
      </ItemDef>
      <ItemDef OID="IT.DM.BRTHDTC" Name="BRTHDTC"
        DataType="text" Length="200" SASFieldName="BRTHDTC"
        def:Label="Date/Time of Birth">
        <Description>
          <TranslatedText xml:lang="en">Date/Time of Birth</TranslatedText>
        </Description>
      </ItemDef>
      <ItemDef OID="IT.DM.AGE" Name="AGE"
        DataType="float" SASFieldName="AGE"
        def:Label="Age">
        <Description>
          <TranslatedText xml:lang="en">Age</TranslatedText>
        </Description>
      </ItemDef>
      <ItemDef OID="IT.DM.AGEU" Name="AGEU"
        DataType="text" Length="200" SASFieldName="AGEU"
        def:Label="Age Units">
        <Description>
          <TranslatedText xml:lang="en">Age Units</TranslatedText>
        </Description>
      </ItemDef>
      <ItemDef OID="IT.DM.SEX" Name="SEX"
        DataType="text" Length="200" SASFieldName="SEX"
        def:Label="Sex">
        <Description>
          <TranslatedText xml:lang="en">Sex</TranslatedText>
        </Description>
      </ItemDef>
      <ItemDef OID="IT.DM.RACE" Name="RACE"
        DataType="text" Length="200" SASFieldName="RACE"
        def:Label="Race">
        <Description>
          <TranslatedText xml:lang="en">Race</TranslatedText>
        </Description>
      </ItemDef>
      <ItemDef OID="IT.DM.ETHNIC" Name="ETHNIC"
        DataType="text" Length="200" SASFieldName="ETHNIC"
        def:Label="Ethnicity">
        <Description>
          <TranslatedText xml:lang="en">Ethnicity</TranslatedText>
        </Description>
      </ItemDef>
      <ItemDef OID="IT.DM.COUNTRY" Name="COUNTRY"
        DataType="text" Length="200" SASFieldName="COUNTRY"
        def:Label="Country">
        <Description>
          <TranslatedText xml:lang="en">Country</TranslatedText>
        </Description>
      </ItemDef>
      <ItemDef OID="IT.DM.ARM" Name="ARM"
        DataType="text" Length="200" SASFieldName="ARM"
        def:Label="Description of Planned Arm">
        <Description>
          <TranslatedText xml:lang="en">Description of Planned Arm</TranslatedText>
        </Description>
      </ItemDef>
      <ItemDef OID="IT.DM.ARMCD" Name="ARMCD"
        DataType="text" Length="200" SASFieldName="ARMCD"
        def:Label="Planned Arm Code">
        <Description>
          <TranslatedText xml:lang="en">Planned Arm Code</TranslatedText>
        </Description>
      </ItemDef>
      <ItemDef OID="IT.DM.ACTARM" Name="ACTARM"
        DataType="text" Length="200" SASFieldName="ACTARM"
        def:Label="Description of Actual Arm">
        <Description>
          <TranslatedText xml:lang="en">Description of Actual Arm</TranslatedText>
        </Description>
      </ItemDef>
      <ItemDef OID="IT.DM.DTHDTC" Name="DTHDTC"
        DataType="text" Length="200" SASFieldName="DTHDTC"
        def:Label="Date/Time of Death">
        <Description>
          <TranslatedText xml:lang="en">Date/Time of Death</TranslatedText>
        </Description>
      </ItemDef>
      <ItemDef OID="IT.DM.DTHFL" Name="DTHFL"
        DataType="text" Length="200" SASFieldName="DTHFL"
        def:Label="Subject Death Flag">
        <Description>
          <TranslatedText xml:lang="en">Subject Death Flag</TranslatedText>
        </Description>
      </ItemDef>
      <ItemDef OID="IT.AE.STUDYID" Name="STUDYID"
        DataType="text" Length="200" SASFieldName="STUDYID"
        def:Label="Study Identifier">
        <Description>
          <TranslatedText xml:lang="en">Study Identifier</TranslatedText>
        </Description>
      </ItemDef>
      <ItemDef OID="IT.AE.DOMAIN" Name="DOMAIN"
        DataType="text" Length="200" SASFieldName="DOMAIN"
        def:Label="Domain Abbreviation">
        <Description>
          <TranslatedText xml:lang="en">Domain Abbreviation</TranslatedText>
        </Description>
      </ItemDef>
      <ItemDef OID="IT.AE.USUBJID" Name="USUBJID"
        DataType="text" Length="200" SASFieldName="USUBJID"
        def:Label="Unique Subject Identifier">
        <Description>
          <TranslatedText xml:lang="en">Unique Subject Identifier</TranslatedText>
        </Description>
      </ItemDef>
      <ItemDef OID="IT.AE.AESEQ" Name="AESEQ"
        DataType="float" SASFieldName="AESEQ"
        def:Label="Sequence Number">
        <Description>
          <TranslatedText xml:lang="en">Sequence Number</TranslatedText>
        </Description>
      </ItemDef>
      <ItemDef OID="IT.AE.AEGRPID" Name="AEGRPID"
        DataType="text" Length="200" SASFieldName="AEGRPID"
        def:Label="Group ID">
        <Description>
          <TranslatedText xml:lang="en">Group ID</TranslatedText>
        </Description>
      </ItemDef>
      <ItemDef OID="IT.AE.AETERM" Name="AETERM"
        DataType="text" Length="200" SASFieldName="AETERM"
        def:Label="Reported Term for AE">
        <Description>
          <TranslatedText xml:lang="en">Reported Term for AE</TranslatedText>
        </Description>
      </ItemDef>
      <ItemDef OID="IT.AE.AELLT" Name="AELLT"
        DataType="text" Length="200" SASFieldName="AELLT"
        def:Label="Lowest Level Term">
        <Description>
          <TranslatedText xml:lang="en">Lowest Level Term</TranslatedText>
        </Description>
      </ItemDef>
      <ItemDef OID="IT.AE.AELLTCD" Name="AELLTCD"
        DataType="float" SASFieldName="AELLTCD"
        def:Label="Lowest Level Term Code">
        <Description>
          <TranslatedText xml:lang="en">Lowest Level Term Code</TranslatedText>
        </Description>
      </ItemDef>
      <ItemDef OID="IT.AE.AEDECOD" Name="AEDECOD"
        DataType="text" Length="200" SASFieldName="AEDECOD"
        def:Label="Dictionary-Derived Term">
        <Description>
          <TranslatedText xml:lang="en">Dictionary-Derived Term</TranslatedText>
        </Description>
      </ItemDef>
      <ItemDef OID="IT.AE.AEPTCD" Name="AEPTCD"
        DataType="float" SASFieldName="AEPTCD"
        def:Label="Preferred Term Code">
        <Description>
          <TranslatedText xml:lang="en">Preferred Term Code</TranslatedText>
        </Description>
      </ItemDef>
      <ItemDef OID="IT.AE.AEHLT" Name="AEHLT"
        DataType="text" Length="200" SASFieldName="AEHLT"
        def:Label="High Level Term">
        <Description>
          <TranslatedText xml:lang="en">High Level Term</TranslatedText>
        </Description>
      </ItemDef>
      <ItemDef OID="IT.AE.AEHLTCD" Name="AEHLTCD"
        DataType="float" SASFieldName="AEHLTCD"
        def:Label="High Level Term Code">
        <Description>
          <TranslatedText xml:lang="en">High Level Term Code</TranslatedText>
        </Description>
      </ItemDef>
      <ItemDef OID="IT.AE.AEHLGT" Name="AEHLGT"
        DataType="text" Length="200" SASFieldName="AEHLGT"
        def:Label="High Level Group Term">
        <Description>
          <TranslatedText xml:lang="en">High Level Group Term</TranslatedText>
        </Description>
      </ItemDef>
      <ItemDef OID="IT.AE.AEHLGTCD" Name="AEHLGTCD"
        DataType="float" SASFieldName="AEHLGTCD"
        def:Label="High Level Group Term Code">
        <Description>
          <TranslatedText xml:lang="en">High Level Group Term Code</TranslatedText>
        </Description>
      </ItemDef>
      <ItemDef OID="IT.AE.AEBODSYS" Name="AEBODSYS"
        DataType="text" Length="200" SASFieldName="AEBODSYS"
        def:Label="Body System or Organ Class">
        <Description>
          <TranslatedText xml:lang="en">Body System or Organ Class</TranslatedText>
        </Description>
      </ItemDef>
      <ItemDef OID="IT.AE.AEBDSYCD" Name="AEBDSYCD"
        DataType="float" SASFieldName="AEBDSYCD"
        def:Label="Body System Code">
        <Description>
          <TranslatedText xml:lang="en">Body System Code</TranslatedText>
        </Description>
      </ItemDef>
      <ItemDef OID="IT.AE.AESOC" Name="AESOC"
        DataType="text" Length="200" SASFieldName="AESOC"
        def:Label="Primary System Organ Class">
        <Description>
          <TranslatedText xml:lang="en">Primary System Organ Class</TranslatedText>
        </Description>
      </ItemDef>
      <ItemDef OID="IT.AE.AESOCCD" Name="AESOCCD"
        DataType="float" SASFieldName="AESOCCD"
        def:Label="Primary SOC Code">
        <Description>
          <TranslatedText xml:lang="en">Primary SOC Code</TranslatedText>
        </Description>
      </ItemDef>
      <ItemDef OID="IT.AE.AESTDTC" Name="AESTDTC"
        DataType="text" Length="200" SASFieldName="AESTDTC"
        def:Label="Start Date/Time of AE">
        <Description>
          <TranslatedText xml:lang="en">Start Date/Time of AE</TranslatedText>
        </Description>
      </ItemDef>
      <ItemDef OID="IT.AE.AEENDTC" Name="AEENDTC"
        DataType="text" Length="200" SASFieldName="AEENDTC"
        def:Label="End Date/Time of AE">
        <Description>
          <TranslatedText xml:lang="en">End Date/Time of AE</TranslatedText>
        </Description>
      </ItemDef>
      <ItemDef OID="IT.AE.AESTDY" Name="AESTDY"
        DataType="float" SASFieldName="AESTDY"
        def:Label="Study Day of Start of AE">
        <Description>
          <TranslatedText xml:lang="en">Study Day of Start of AE</TranslatedText>
        </Description>
      </ItemDef>
      <ItemDef OID="IT.AE.AEENDY" Name="AEENDY"
        DataType="float" SASFieldName="AEENDY"
        def:Label="Study Day of End of AE">
        <Description>
          <TranslatedText xml:lang="en">Study Day of End of AE</TranslatedText>
        </Description>
      </ItemDef>
      <ItemDef OID="IT.AE.AEDUR" Name="AEDUR"
        DataType="text" Length="200" SASFieldName="AEDUR"
        def:Label="Duration of AE">
        <Description>
          <TranslatedText xml:lang="en">Duration of AE</TranslatedText>
        </Description>
      </ItemDef>
      <ItemDef OID="IT.AE.AEENRF" Name="AEENRF"
        DataType="text" Length="200" SASFieldName="AEENRF"
        def:Label="End Relative to Ref Period">
        <Description>
          <TranslatedText xml:lang="en">End Relative to Ref Period</TranslatedText>
        </Description>
      </ItemDef>
      <ItemDef OID="IT.AE.AESEV" Name="AESEV"
        DataType="text" Length="200" SASFieldName="AESEV"
        def:Label="Severity/Intensity">
        <Description>
          <TranslatedText xml:lang="en">Severity/Intensity</TranslatedText>
        </Description>
      </ItemDef>
      <ItemDef OID="IT.AE.AESER" Name="AESER"
        DataType="text" Length="200" SASFieldName="AESER"
        def:Label="Serious Event">
        <Description>
          <TranslatedText xml:lang="en">Serious Event</TranslatedText>
        </Description>
      </ItemDef>
      <ItemDef OID="IT.AE.AEACN" Name="AEACN"
        DataType="text" Length="200" SASFieldName="AEACN"
        def:Label="Action Taken with Study Treatment">
        <Description>
          <TranslatedText xml:lang="en">Action Taken with Study Treatment</TranslatedText>
        </Description>
      </ItemDef>
      <ItemDef OID="IT.AE.AEREL" Name="AEREL"
        DataType="text" Length="200" SASFieldName="AEREL"
        def:Label="Causality">
        <Description>
          <TranslatedText xml:lang="en">Causality</TranslatedText>
        </Description>
      </ItemDef>
      <ItemDef OID="IT.AE.AEOUT" Name="AEOUT"
        DataType="text" Length="200" SASFieldName="AEOUT"
        def:Label="Outcome of AE">
        <Description>
          <TranslatedText xml:lang="en">Outcome of AE</TranslatedText>
        </Description>
      </ItemDef>
      <ItemDef OID="IT.AE.AESCAN" Name="AESCAN"
        DataType="text" Length="200" SASFieldName="AESCAN"
        def:Label="Involves Cancer">
        <Description>
          <TranslatedText xml:lang="en">Involves Cancer</TranslatedText>
        </Description>
      </ItemDef>
      <ItemDef OID="IT.AE.AESCONG" Name="AESCONG"
        DataType="text" Length="200" SASFieldName="AESCONG"
        def:Label="Congenital Anomaly/Birth Defect">
        <Description>
          <TranslatedText xml:lang="en">Congenital Anomaly/Birth Defect</TranslatedText>
        </Description>
      </ItemDef>
      <ItemDef OID="IT.AE.AESDTH" Name="AESDTH"
        DataType="text" Length="200" SASFieldName="AESDTH"
        def:Label="Results in Death">
        <Description>
          <TranslatedText xml:lang="en">Results in Death</TranslatedText>
        </Description>
      </ItemDef>
      <ItemDef OID="IT.AE.AESHOSP" Name="AESHOSP"
        DataType="text" Length="200" SASFieldName="AESHOSP"
        def:Label="Requires/Prolongs Hospitalization">
        <Description>
          <TranslatedText xml:lang="en">Requires/Prolongs Hospitalization</TranslatedText>
        </Description>
      </ItemDef>
      <ItemDef OID="IT.AE.AESDISAB" Name="AESDISAB"
        DataType="text" Length="200" SASFieldName="AESDISAB"
        def:Label="Persist/Sig Disability/Incapacity">
        <Description>
          <TranslatedText xml:lang="en">Persist/Sig Disability/Incapacity</TranslatedText>
        </Description>
      </ItemDef>
      <ItemDef OID="IT.AE.AESLIFE" Name="AESLIFE"
        DataType="text" Length="200" SASFieldName="AESLIFE"
        def:Label="Life Threatening">
        <Description>
          <TranslatedText xml:lang="en">Life Threatening</TranslatedText>
        </Description>
      </ItemDef>
      <ItemDef OID="IT.AE.AESMIE" Name="AESMIE"
        DataType="text" Length="200" SASFieldName="AESMIE"
        def:Label="Other Medically Important Event">
        <Description>
          <TranslatedText xml:lang="en">Other Medically Important Event</TranslatedText>
        </Description>
      </ItemDef>
      <ItemDef OID="IT.AE.AETOXGR" Name="AETOXGR"
        DataType="text" Length="200" SASFieldName="AETOXGR"
        def:Label="Standard Toxicity Grade">
        <Description>
          <TranslatedText xml:lang="en">Standard Toxicity Grade</TranslatedText>
        </Description>
      </ItemDef>
      <ItemDef OID="IT.AE.VISIT" Name="VISIT"
        DataType="text" Length="200" SASFieldName="VISIT"
        def:Label="Visit Name">
        <Description>
          <TranslatedText xml:lang="en">Visit Name</TranslatedText>
        </Description>
      </ItemDef>
      <ItemDef OID="IT.AE.VISITNUM" Name="VISITNUM"
        DataType="float" SASFieldName="VISITNUM"
        def:Label="Visit Number">
        <Description>
          <TranslatedText xml:lang="en">Visit Number</TranslatedText>
        </Description>
      </ItemDef>
      <ItemDef OID="IT.AE.EPOCH" Name="EPOCH"
        DataType="text" Length="200" SASFieldName="EPOCH"
        def:Label="Epoch">
        <Description>
          <TranslatedText xml:lang="en">Epoch</TranslatedText>
        </Description>
      </ItemDef>
      <ItemDef OID="IT.VS.STUDYID" Name="STUDYID"
        DataType="text" Length="200" SASFieldName="STUDYID"
        def:Label="Study Identifier">
        <Description>
          <TranslatedText xml:lang="en">Study Identifier</TranslatedText>
        </Description>
      </ItemDef>
      <ItemDef OID="IT.VS.DOMAIN" Name="DOMAIN"
        DataType="text" Length="200" SASFieldName="DOMAIN"
        def:Label="Domain Abbreviation">
        <Description>
          <TranslatedText xml:lang="en">Domain Abbreviation</TranslatedText>
        </Description>
      </ItemDef>
      <ItemDef OID="IT.VS.USUBJID" Name="USUBJID"
        DataType="text" Length="200" SASFieldName="USUBJID"
        def:Label="Unique Subject Identifier">
        <Description>
          <TranslatedText xml:lang="en">Unique Subject Identifier</TranslatedText>
        </Description>
      </ItemDef>
      <ItemDef OID="IT.VS.VSSEQ" Name="VSSEQ"
        DataType="float" SASFieldName="VSSEQ"
        def:Label="Sequence Number">
        <Description>
          <TranslatedText xml:lang="en">Sequence Number</TranslatedText>
        </Description>
      </ItemDef>
      <ItemDef OID="IT.VS.VSTESTCD" Name="VSTESTCD"
        DataType="text" Length="200" SASFieldName="VSTESTCD"
        def:Label="Vital Signs Test Short Name">
        <Description>
          <TranslatedText xml:lang="en">Vital Signs Test Short Name</TranslatedText>
        </Description>
      </ItemDef>
      <ItemDef OID="IT.VS.VSTEST" Name="VSTEST"
        DataType="text" Length="200" SASFieldName="VSTEST"
        def:Label="Vital Signs Test Name">
        <Description>
          <TranslatedText xml:lang="en">Vital Signs Test Name</TranslatedText>
        </Description>
      </ItemDef>
      <ItemDef OID="IT.VS.VSPOS" Name="VSPOS"
        DataType="text" Length="200" SASFieldName="VSPOS"
        def:Label="Vital Signs Position of Subject">
        <Description>
          <TranslatedText xml:lang="en">Vital Signs Position of Subject</TranslatedText>
        </Description>
      </ItemDef>
      <ItemDef OID="IT.VS.VSORRES" Name="VSORRES"
        DataType="text" Length="200" SASFieldName="VSORRES"
        def:Label="Result or Finding in Original Units">
        <Description>
          <TranslatedText xml:lang="en">Result or Finding in Original Units</TranslatedText>
        </Description>
      </ItemDef>
      <ItemDef OID="IT.VS.VSORRESU" Name="VSORRESU"
        DataType="text" Length="200" SASFieldName="VSORRESU"
        def:Label="Original Units">
        <Description>
          <TranslatedText xml:lang="en">Original Units</TranslatedText>
        </Description>
      </ItemDef>
      <ItemDef OID="IT.VS.VSSTRESC" Name="VSSTRESC"
        DataType="text" Length="200" SASFieldName="VSSTRESC"
        def:Label="Character Result/Finding in Std Format">
        <Description>
          <TranslatedText xml:lang="en">Character Result/Finding in Std Format</TranslatedText>
        </Description>
      </ItemDef>
      <ItemDef OID="IT.VS.VSSTRESN" Name="VSSTRESN"
        DataType="float" SASFieldName="VSSTRESN"
        def:Label="Numeric Result/Finding in Standard Units">
        <Description>
          <TranslatedText xml:lang="en">Numeric Result/Finding in Standard Units</TranslatedText>
        </Description>
      </ItemDef>
      <ItemDef OID="IT.VS.VSSTRESU" Name="VSSTRESU"
        DataType="text" Length="200" SASFieldName="VSSTRESU"
        def:Label="Standard Units">
        <Description>
          <TranslatedText xml:lang="en">Standard Units</TranslatedText>
        </Description>
      </ItemDef>
      <ItemDef OID="IT.VS.VSNRIND" Name="VSNRIND"
        DataType="text" Length="200" SASFieldName="VSNRIND"
        def:Label="Reference Range Indicator">
        <Description>
          <TranslatedText xml:lang="en">Reference Range Indicator</TranslatedText>
        </Description>
      </ItemDef>
      <ItemDef OID="IT.VS.VSBLFL" Name="VSBLFL"
        DataType="text" Length="200" SASFieldName="VSBLFL"
        def:Label="Baseline Flag">
        <Description>
          <TranslatedText xml:lang="en">Baseline Flag</TranslatedText>
        </Description>
      </ItemDef>
      <ItemDef OID="IT.VS.VSDRVFL" Name="VSDRVFL"
        DataType="text" Length="200" SASFieldName="VSDRVFL"
        def:Label="Derived Flag">
        <Description>
          <TranslatedText xml:lang="en">Derived Flag</TranslatedText>
        </Description>
      </ItemDef>
      <ItemDef OID="IT.VS.VISITNUM" Name="VISITNUM"
        DataType="float" SASFieldName="VISITNUM"
        def:Label="Visit Number">
        <Description>
          <TranslatedText xml:lang="en">Visit Number</TranslatedText>
        </Description>
      </ItemDef>
      <ItemDef OID="IT.VS.VISIT" Name="VISIT"
        DataType="text" Length="200" SASFieldName="VISIT"
        def:Label="Visit Name">
        <Description>
          <TranslatedText xml:lang="en">Visit Name</TranslatedText>
        </Description>
      </ItemDef>
      <ItemDef OID="IT.VS.VSDTC" Name="VSDTC"
        DataType="text" Length="200" SASFieldName="VSDTC"
        def:Label="Date/Time of Measurements">
        <Description>
          <TranslatedText xml:lang="en">Date/Time of Measurements</TranslatedText>
        </Description>
      </ItemDef>
      <ItemDef OID="IT.VS.VSDY" Name="VSDY"
        DataType="float" SASFieldName="VSDY"
        def:Label="Study Day of Vital Signs">
        <Description>
          <TranslatedText xml:lang="en">Study Day of Vital Signs</TranslatedText>
        </Description>
      </ItemDef>
      <ItemDef OID="IT.LB.STUDYID" Name="STUDYID"
        DataType="text" Length="200" SASFieldName="STUDYID"
        def:Label="Study Identifier">
        <Description>
          <TranslatedText xml:lang="en">Study Identifier</TranslatedText>
        </Description>
      </ItemDef>
      <ItemDef OID="IT.LB.DOMAIN" Name="DOMAIN"
        DataType="text" Length="200" SASFieldName="DOMAIN"
        def:Label="Domain Abbreviation">
        <Description>
          <TranslatedText xml:lang="en">Domain Abbreviation</TranslatedText>
        </Description>
      </ItemDef>
      <ItemDef OID="IT.LB.USUBJID" Name="USUBJID"
        DataType="text" Length="200" SASFieldName="USUBJID"
        def:Label="Unique Subject Identifier">
        <Description>
          <TranslatedText xml:lang="en">Unique Subject Identifier</TranslatedText>
        </Description>
      </ItemDef>
      <ItemDef OID="IT.LB.LBSEQ" Name="LBSEQ"
        DataType="float" SASFieldName="LBSEQ"
        def:Label="Sequence Number">
        <Description>
          <TranslatedText xml:lang="en">Sequence Number</TranslatedText>
        </Description>
      </ItemDef>
      <ItemDef OID="IT.LB.LBTESTCD" Name="LBTESTCD"
        DataType="text" Length="200" SASFieldName="LBTESTCD"
        def:Label="Lab Test or Examination Short Name">
        <Description>
          <TranslatedText xml:lang="en">Lab Test or Examination Short Name</TranslatedText>
        </Description>
      </ItemDef>
      <ItemDef OID="IT.LB.LBTEST" Name="LBTEST"
        DataType="text" Length="200" SASFieldName="LBTEST"
        def:Label="Lab Test or Examination Name">
        <Description>
          <TranslatedText xml:lang="en">Lab Test or Examination Name</TranslatedText>
        </Description>
      </ItemDef>
      <ItemDef OID="IT.LB.LBCAT" Name="LBCAT"
        DataType="text" Length="200" SASFieldName="LBCAT"
        def:Label="Category for Lab Test">
        <Description>
          <TranslatedText xml:lang="en">Category for Lab Test</TranslatedText>
        </Description>
      </ItemDef>
      <ItemDef OID="IT.LB.LBORRES" Name="LBORRES"
        DataType="text" Length="200" SASFieldName="LBORRES"
        def:Label="Result or Finding in Original Units">
        <Description>
          <TranslatedText xml:lang="en">Result or Finding in Original Units</TranslatedText>
        </Description>
      </ItemDef>
      <ItemDef OID="IT.LB.LBORRESU" Name="LBORRESU"
        DataType="text" Length="200" SASFieldName="LBORRESU"
        def:Label="Original Units">
        <Description>
          <TranslatedText xml:lang="en">Original Units</TranslatedText>
        </Description>
      </ItemDef>
      <ItemDef OID="IT.LB.LBSTRESC" Name="LBSTRESC"
        DataType="text" Length="200" SASFieldName="LBSTRESC"
        def:Label="Character Result in Standard Format">
        <Description>
          <TranslatedText xml:lang="en">Character Result in Standard Format</TranslatedText>
        </Description>
      </ItemDef>
      <ItemDef OID="IT.LB.LBSTRESN" Name="LBSTRESN"
        DataType="float" SASFieldName="LBSTRESN"
        def:Label="Numeric Result in Standard Units">
        <Description>
          <TranslatedText xml:lang="en">Numeric Result in Standard Units</TranslatedText>
        </Description>
      </ItemDef>
      <ItemDef OID="IT.LB.LBSTRESU" Name="LBSTRESU"
        DataType="text" Length="200" SASFieldName="LBSTRESU"
        def:Label="Standard Units">
        <Description>
          <TranslatedText xml:lang="en">Standard Units</TranslatedText>
        </Description>
      </ItemDef>
      <ItemDef OID="IT.LB.LBNRLO" Name="LBNRLO"
        DataType="float" SASFieldName="LBNRLO"
        def:Label="Reference Range Lower Limit">
        <Description>
          <TranslatedText xml:lang="en">Reference Range Lower Limit</TranslatedText>
        </Description>
      </ItemDef>
      <ItemDef OID="IT.LB.LBNRHI" Name="LBNRHI"
        DataType="float" SASFieldName="LBNRHI"
        def:Label="Reference Range Upper Limit">
        <Description>
          <TranslatedText xml:lang="en">Reference Range Upper Limit</TranslatedText>
        </Description>
      </ItemDef>
      <ItemDef OID="IT.LB.LBNRIND" Name="LBNRIND"
        DataType="text" Length="200" SASFieldName="LBNRIND"
        def:Label="Reference Range Indicator">
        <Description>
          <TranslatedText xml:lang="en">Reference Range Indicator</TranslatedText>
        </Description>
      </ItemDef>
      <ItemDef OID="IT.LB.LBBLFL" Name="LBBLFL"
        DataType="text" Length="200" SASFieldName="LBBLFL"
        def:Label="Baseline Flag">
        <Description>
          <TranslatedText xml:lang="en">Baseline Flag</TranslatedText>
        </Description>
      </ItemDef>
      <ItemDef OID="IT.LB.VISITNUM" Name="VISITNUM"
        DataType="float" SASFieldName="VISITNUM"
        def:Label="Visit Number">
        <Description>
          <TranslatedText xml:lang="en">Visit Number</TranslatedText>
        </Description>
      </ItemDef>
      <ItemDef OID="IT.LB.VISIT" Name="VISIT"
        DataType="text" Length="200" SASFieldName="VISIT"
        def:Label="Visit Name">
        <Description>
          <TranslatedText xml:lang="en">Visit Name</TranslatedText>
        </Description>
      </ItemDef>
      <ItemDef OID="IT.LB.LBDTC" Name="LBDTC"
        DataType="text" Length="200" SASFieldName="LBDTC"
        def:Label="Date/Time of Specimen Collection">
        <Description>
          <TranslatedText xml:lang="en">Date/Time of Specimen Collection</TranslatedText>
        </Description>
      </ItemDef>
      <ItemDef OID="IT.LB.LBDY" Name="LBDY"
        DataType="float" SASFieldName="LBDY"
        def:Label="Study Day of Lab Test">
        <Description>
          <TranslatedText xml:lang="en">Study Day of Lab Test</TranslatedText>
        </Description>
      </ItemDef>
      <ItemDef OID="IT.EX.STUDYID" Name="STUDYID"
        DataType="text" Length="200" SASFieldName="STUDYID"
        def:Label="Study Identifier">
        <Description>
          <TranslatedText xml:lang="en">Study Identifier</TranslatedText>
        </Description>
      </ItemDef>
      <ItemDef OID="IT.EX.DOMAIN" Name="DOMAIN"
        DataType="text" Length="200" SASFieldName="DOMAIN"
        def:Label="Domain Abbreviation">
        <Description>
          <TranslatedText xml:lang="en">Domain Abbreviation</TranslatedText>
        </Description>
      </ItemDef>
      <ItemDef OID="IT.EX.USUBJID" Name="USUBJID"
        DataType="text" Length="200" SASFieldName="USUBJID"
        def:Label="Unique Subject Identifier">
        <Description>
          <TranslatedText xml:lang="en">Unique Subject Identifier</TranslatedText>
        </Description>
      </ItemDef>
      <ItemDef OID="IT.EX.EXSEQ" Name="EXSEQ"
        DataType="float" SASFieldName="EXSEQ"
        def:Label="Sequence Number">
        <Description>
          <TranslatedText xml:lang="en">Sequence Number</TranslatedText>
        </Description>
      </ItemDef>
      <ItemDef OID="IT.EX.EXTRT" Name="EXTRT"
        DataType="text" Length="200" SASFieldName="EXTRT"
        def:Label="Name of Treatment">
        <Description>
          <TranslatedText xml:lang="en">Name of Treatment</TranslatedText>
        </Description>
      </ItemDef>
      <ItemDef OID="IT.EX.EXDOSE" Name="EXDOSE"
        DataType="float" SASFieldName="EXDOSE"
        def:Label="Dose">
        <Description>
          <TranslatedText xml:lang="en">Dose</TranslatedText>
        </Description>
      </ItemDef>
      <ItemDef OID="IT.EX.EXDOSU" Name="EXDOSU"
        DataType="text" Length="200" SASFieldName="EXDOSU"
        def:Label="Dose Units">
        <Description>
          <TranslatedText xml:lang="en">Dose Units</TranslatedText>
        </Description>
      </ItemDef>
      <ItemDef OID="IT.EX.EXDOSFRM" Name="EXDOSFRM"
        DataType="text" Length="200" SASFieldName="EXDOSFRM"
        def:Label="Dose Form">
        <Description>
          <TranslatedText xml:lang="en">Dose Form</TranslatedText>
        </Description>
      </ItemDef>
      <ItemDef OID="IT.EX.EXDOSFRQ" Name="EXDOSFRQ"
        DataType="text" Length="200" SASFieldName="EXDOSFRQ"
        def:Label="Dosing Frequency per Interval">
        <Description>
          <TranslatedText xml:lang="en">Dosing Frequency per Interval</TranslatedText>
        </Description>
      </ItemDef>
      <ItemDef OID="IT.EX.EXROUTE" Name="EXROUTE"
        DataType="text" Length="200" SASFieldName="EXROUTE"
        def:Label="Route of Administration">
        <Description>
          <TranslatedText xml:lang="en">Route of Administration</TranslatedText>
        </Description>
      </ItemDef>
      <ItemDef OID="IT.EX.EXSTDTC" Name="EXSTDTC"
        DataType="text" Length="200" SASFieldName="EXSTDTC"
        def:Label="Start Date/Time of Treatment">
        <Description>
          <TranslatedText xml:lang="en">Start Date/Time of Treatment</TranslatedText>
        </Description>
      </ItemDef>
      <ItemDef OID="IT.EX.EXENDTC" Name="EXENDTC"
        DataType="text" Length="200" SASFieldName="EXENDTC"
        def:Label="End Date/Time of Treatment">
        <Description>
          <TranslatedText xml:lang="en">End Date/Time of Treatment</TranslatedText>
        </Description>
      </ItemDef>
      <ItemDef OID="IT.EX.EXSTDY" Name="EXSTDY"
        DataType="float" SASFieldName="EXSTDY"
        def:Label="Study Day of Start of Treatment">
        <Description>
          <TranslatedText xml:lang="en">Study Day of Start of Treatment</TranslatedText>
        </Description>
      </ItemDef>
      <ItemDef OID="IT.EX.EXENDY" Name="EXENDY"
        DataType="float" SASFieldName="EXENDY"
        def:Label="Study Day of End of Treatment">
        <Description>
          <TranslatedText xml:lang="en">Study Day of End of Treatment</TranslatedText>
        </Description>
      </ItemDef>
      <ItemDef OID="IT.EX.VISIT" Name="VISIT"
        DataType="text" Length="200" SASFieldName="VISIT"
        def:Label="Visit Name">
        <Description>
          <TranslatedText xml:lang="en">Visit Name</TranslatedText>
        </Description>
      </ItemDef>
      <ItemDef OID="IT.EX.VISITNUM" Name="VISITNUM"
        DataType="float" SASFieldName="VISITNUM"
        def:Label="Visit Number">
        <Description>
          <TranslatedText xml:lang="en">Visit Number</TranslatedText>
        </Description>
      </ItemDef>
      <ItemDef OID="IT.EX.EPOCH" Name="EPOCH"
        DataType="text" Length="200" SASFieldName="EPOCH"
        def:Label="Epoch">
        <Description>
          <TranslatedText xml:lang="en">Epoch</TranslatedText>
        </Description>
      </ItemDef>
    </MetaDataVersion>
  </Study>
</ODM>