STUDYID,DOMAIN,USUBJID,SUBJID,RFSTDTC,RFENDTC,RFXSTDTC,RFICDTC,SITEID,BRTHDTC,AGE,AGEU,SEX,RACE,ETHNIC,COUNTRY,ARM,ARMCD,ACTARM,DTHDTC,DTHFL
STUDY001,DM,STUDY001-001-001,001,2024-01-15,2024-07-15,2024-01-15,2024-01-10,001,1979-03-22,45,YEARS,M,WHITE,NOT HISPANIC OR LATINO,USA,TREATMENT A,TRT-A,TREATMENT A,,
STUDY001,DM,STUDY001-001-002,002,2024-01-18,2024-07-18,2024-01-18,2024-01-20,001,,38,YEARS,FEMALE,ASIAN,NOT HISPANIC OR LATINO,USA,PLACEBO,PBO,PLACEBO,,
STUDY001,DM,STUDY001-002-001,001,2024-02-05,2024-08-05,2024-02-05,2024-02-01,002,,155,YEARS,F,BLACK OR AFRICAN AMERICAN,NOT HISPANIC OR LATINO,USA,TREATMENT A,TRT-A,TREATMENT A,,
