STUDYID,DOMAIN,USUBJID,EXSEQ,EXTRT,EXDOSE,EXDOSU,EXDOSFRM,EXDOSFRQ,EXROUTE,EXSTDTC,EXENDTC,EXSTDY,EXENDY,VISIT,VISITNUM,EPOCH
STUDY001,EX,STUDY001-001-001,1,STUDY DRUG 10MG,10,mg,TABLET,QD,ORAL,2024-01-15,2024-07-15,1,183,BASELINE,2,TREATMENT
STUDY001,EX,STUDY001-001-002,1,PLACEBO,0,mg,TABLET,QD,ORAL,2024-01-10,2024-07-18,-8,183,BASELINE,2,TREATMENT
