STUDYID,DOMAIN,USUBJID,LBSEQ,LBTESTCD,LBTEST,LBCAT,LBORRES,LBORRESU,LBSTRESC,LBSTRESN,LBSTRESU,LBNRLO,LBNRHI,LBNRIND,LBBLFL,VISITNUM,VISIT,LBDTC,LBDY
STUDY001,LB,STUDY001-001-001,1,ALT,Alanine Aminotransferase,CHEMISTRY,450,U/L,450.0,450.0,U/L,,40,HIGH,Y,2,BASELINE,2024-01-15,1
STUDY001,LB,STUDY001-001-002,1,HGB,Hemoglobin,HEMATOLOGY,12.5,,12.5,12.5,,,,NORMAL,Y,2,BASELINE,2024-01-18,1
