STUDYID,DOMAIN,USUBJID,VSSEQ,VSTESTCD,VSTEST,VSPOS,VSORRES,VSORRESU,VSSTRESC,VSSTRESN,VSSTRESU,VSNRIND,VSBLFL,VSDRVFL,VISITNUM,VISIT,VSDTC,VSDY
STUDY001,VS,STUDY001-001-001,1,SYSBP,Systolic Blood Pressure,SITTING,125,mmHg,125.0,125.0,mmHg,,Y,,2,BASELINE,2024-01-15,1
STUDY001,VS,STUDY001-001-001,2,DIABP,Diastolic Blood Pressure,SITTING,130,mmHg,130.0,130.0,mmHg,,Y,,2,BASELINE,2024-01-15,1
STUDY001,VS,STUDY001-002-001,1,PULSE,Pulse Rate,,250,beats/min,250.0,250.0,beats/min,,Y,,2,BASELINE,2024-02-05,1
STUDY001,VS,STUDY001-001-002,1,WEIGHT,Weight,,seventy,kg,seventy,,kg,,Y,,2,BASELINE,2024-01-18,1
